File: TG_Data/Sif Data/STA TEST 2 - OXIDATION 800C 20% O2/ExpDat_WS2.csv
#EXPORTTYPE:                 ;DATA SINGLE
#FILE:                       ;WS2.ngb-dt6
#FORMAT:                     ;NETZSCH5
#FTYPE:                      ;ANSI
#IDENTITY:                   ;WS2
#DECIMAL:                    ;COMMA
#SEPARATOR:                  ;SEMICOLON
#MTYPE:                      ;TG
#INSTRUMENT:                 ;NETZSCH TG 209F3
#PROJECT:                    ;113397
#DATE/TIME:                  ;28-10-2025 05:36:56 (UTC+1)
#CORR. FILE:                 ;Correction for method CHAR_OXIDATION_800C_20-O2
#TEMPCAL:                    ;TCALZERO.TCX
#LABORATORY:                 ;053
#OPERATOR:                   ;ahugo
#REMARK:                     ;Initial mass: 4,663
#SAMPLE:                     ;WS2
#SAMPLE MASS /mg:            ;4,6633
#MATERIAL:                   ;biochar
#TYPE OF CRUCIBLE:           ;Al2O3 85 µl, open
#SAMPLE CRUCIBLE MASS /mg:   ;143,6618
#REFERENCE CRUCIBLE MASS /mg:;
#M.RANGE /mg:                ;2000
#CORR. CODE:                 ;020
#RANGE:                      ;35°C....800°C/0,0....40,0K/min
#SEGMENT:                    ;S2-3/3
#SEG. 1:                     ;35°C/40,0(K/min)/105°C
#SEG. 2:                     ;105°C/00:30/105°C
#SEG. 3:                     ;105°C/5,0(K/min)/800°C

##Temp./°C;Time/min;Mass/%;Segment
104,78518; 17,00000;97,63733;2
104,78006; 17,10000;97,66464;2
104,79296; 17,20000;97,63673;2
104,79614; 17,30000;97,64104;2
104,79791; 17,40000;97,61106;2
104,81008; 17,50000;97,59405;2
104,80103; 17,60000;97,59812;2
104,81492; 17,70000;97,60252;2
104,81321; 17,80000;97,59387;2
104,81093; 17,90000;97,59824;2
104,82602; 18,00000;97,59193;2
104,81911; 18,10000;97,59159;2
104,83088; 18,20000;97,56611;2
104,82814; 18,30000;97,56829;2
104,82389; 18,40000;97,56583;2
104,84010; 18,50000;97,54253;2
104,83011; 18,60000;97,53600;2
104,84690; 18,70000;97,54269;2
104,85017; 18,80000;97,55088;2
104,84592; 18,90000;97,54062;2
104,85803; 19,00000;97,53156;2
104,85012; 19,10000;97,53396;2
104,85282; 19,20000;97,54049;2
104,85613; 19,30000;97,53157;2
104,84792; 19,40000;97,52968;2
104,85904; 19,50000;97,51444;2
104,85414; 19,60000;97,51678;2
104,86484; 19,70000;97,51484;2
104,86420; 19,80000;97,50132;2
104,85889; 19,90000;97,49339;2
104,87604; 20,00000;97,49756;2
104,87112; 20,10000;97,50181;2
104,87687; 20,20000;97,48217;2
104,87820; 20,30000;97,45474;2
104,87690; 20,40000;97,47806;2
104,88792; 20,50000;97,47388;2
104,87415; 20,60000;97,47179;2
104,88081; 20,70000;97,46098;2
104,88313; 20,80000;97,45463;2
104,87598; 20,90000;97,45022;2
104,88801; 21,00000;97,46544;2
104,88316; 21,10000;97,45446;2
104,88981; 21,20000;97,44597;2
104,89420; 21,30000;97,43949;2
104,88795; 21,40000;97,45052;2
104,89893; 21,50000;97,44558;2
104,89311; 21,60000;97,42251;2
104,89888; 21,70000;97,42011;2
104,90820; 21,80000;97,40090;2
104,90496; 21,90000;97,38804;2
104,91998; 22,00000;97,37741;2
104,91015; 22,10000;97,39461;2
104,91484; 22,20000;97,38370;2
104,91714; 22,30000;97,37954;2
104,90796; 22,40000;97,36229;2
104,92091; 22,50000;97,35596;2
104,91521; 22,60000;97,36666;2
104,91682; 22,70000;97,34937;2
104,92513; 22,80000;97,34950;2
104,91195; 22,90000;97,33863;2
104,92693; 23,00000;97,33891;2
104,91819; 23,10000;97,33659;2
104,92082; 23,20000;97,31923;2
104,93012; 23,30000;97,31113;2
104,91505; 23,40000;97,31969;2
104,93492; 23,50000;97,34736;2
104,92717; 23,60000;97,31914;2
104,92783; 23,70000;97,31320;2
104,93812; 23,80000;97,32375;2
104,92700; 23,90000;97,30209;2
104,94090; 24,00000;97,28303;2
104,93317; 24,10000;97,27449;2
104,93183; 24,20000;97,28740;2
104,94213; 24,30000;97,28942;2
104,93102; 24,40000;97,29590;2
104,93683; 24,50000;97,28540;2
104,93218; 24,60000;97,29801;2
104,93792; 24,70000;97,29784;2
104,94508; 24,80000;97,28956;2
104,93702; 24,90000;97,28509;2
104,94987; 25,00000;97,25496;2
104,94124; 25,10000;97,23801;2
104,94180; 25,20000;97,24894;2
104,94906; 25,30000;97,27443;2
104,93902; 25,40000;97,26383;2
104,94594; 25,50000;97,27434;2
104,94321; 25,60000;97,25733;2
104,94084; 25,70000;97,24411;2
104,95206; 25,80000;97,21852;2
104,94305; 25,90000;97,21673;2
104,95792; 26,00000;97,21862;2
104,95313; 26,10000;97,21871;2
104,94988; 26,20000;97,19086;2
104,95807; 26,30000;97,20356;2
104,95205; 26,40000;97,20583;2
104,95986; 26,50000;97,19335;2
104,95520; 26,60000;97,20979;2
104,95380; 26,70000;97,18432;2
104,96212; 26,80000;97,17994;2
104,95003; 26,90000;97,16522;2
104,96290; 27,00000;97,17346;2
104,95715; 27,10000;97,16091;2
104,95687; 27,20000;97,17583;2
104,97009; 27,30000;97,16493;2
104,95808; 27,40000;97,16519;2
104,96383; 27,50000;97,15850;2
104,96216; 27,60000;97,13511;2
104,95393; 27,70000;97,14158;2
104,96401; 27,80000;97,14137;2
104,95510; 27,90000;97,15020;2
104,96480; 28,00000;97,13483;2
104,96519; 28,10000;97,13733;2
104,95886; 28,20000;97,11126;2
104,97201; 28,30000;97,11151;2
104,96111; 28,40000;97,10708;2
104,97086; 28,50000;97,10300;2
104,97422; 28,60000;97,10723;2
104,96987; 28,70000;97,10286;2
104,97808; 28,80000;97,10504;2
104,97010; 28,90000;97,09861;2
104,97782; 29,00000;97,08327;2
104,97714; 29,10000;97,07097;2
104,97291; 29,20000;97,07283;2
104,98101; 29,30000;97,08356;2
104,97009; 29,40000;97,07307;2
104,97484; 29,50000;97,09213;2
104,97918; 29,60000;97,07722;2
104,96990; 29,70000;97,06615;2
104,98100; 29,80000;97,05589;2
104,97110; 29,90000;97,06855;2
104,98185; 30,00000;97,05119;2
104,98019; 30,10000;97,03871;2
104,97189; 30,20000;97,03192;2
104,98101; 30,30000;97,03017;2
104,97208; 30,40000;97,04066;2
104,98184; 30,50000;97,02987;2
104,98115; 30,60000;97,02803;2
104,97088; 30,70000;97,02777;2
104,98498; 30,80000;97,01912;2
104,97213; 30,90000;97,00845;2
104,98085; 31,00000;97,00213;2
104,98220; 31,10000;96,99569;2
104,97394; 31,20000;96,99572;2
104,98593; 31,30000;96,99783;2
104,97312; 31,40000;96,97623;2
104,98084; 31,50000;96,97420;2
104,98223; 31,60000;96,97408;2
104,97696; 31,70000;96,96108;2
104,99455; 31,80000;96,97081;3
105,07568; 31,90000;96,95395;3
105,24296; 32,00000;96,90650;3
105,45433; 32,10000;96,92746;3
105,66916; 32,20000;96,95615;3
105,94497; 32,30000;96,97115;3
106,21511; 32,40000;96,96771;3
106,52568; 32,50000;96,96309;3
106,85524; 32,60000;96,96075;3
107,19464; 32,70000;96,94819;3
107,58143; 32,80000;96,97629;3
107,95859; 32,90000;96,96617;3
108,38970; 33,00000;96,97780;3
108,80407; 33,10000;96,97207;3
109,25307; 33,20000;96,99007;3
109,70669; 33,30000;96,97433;3
110,16388; 33,40000;96,98867;3
110,66279; 33,50000;96,97674;3
111,13660; 33,60000;96,96255;3
111,65739; 33,70000;96,95627;3
112,14832; 33,80000;96,95998;3
112,67521; 33,90000;96,98023;3
113,19429; 34,00000;96,99134;3
113,71550; 34,10000;96,96404;3
114,25759; 34,20000;96,95906;3
114,78087; 34,30000;96,97770;3
115,33734; 34,40000;96,97502;3
115,86379; 34,50000;96,95929;3
116,42809; 34,60000;96,96211;3
116,96642; 34,70000;96,95556;3
117,51865; 34,80000;96,95044;3
118,08028; 34,90000;96,93501;3
118,61694; 35,00000;96,93421;3
119,18161; 35,10000;96,94217;3
119,71312; 35,20000;96,93100;3
120,28706; 35,30000;96,92514;3
120,82473; 35,40000;96,92886;3
121,38763; 35,50000;96,93166;3
121,93564; 35,60000;96,90589;3
122,47511; 35,70000;96,88405;3
123,03885; 35,80000;96,86435;3
123,56853; 35,90000;96,89485;3
124,13640; 36,00000;96,89289;3
124,66261; 36,10000;96,88840;3
125,22203; 36,20000;96,88394;3
125,75387; 36,30000;96,89031;3
126,29643; 36,40000;96,88689;3
126,84249; 36,50000;96,87774;3
127,36910; 36,60000;96,86779;3
127,92125; 36,70000;96,86639;3
128,43309; 36,80000;96,85716;3
128,98986; 36,90000;96,84532;3
129,49874; 37,00000;96,85992;3
130,04962; 37,10000;96,86392;3
130,56676; 37,20000;96,84349;3
131,09866; 37,30000;96,84483;3
131,62292; 37,40000;96,84693;3
132,14378; 37,50000;96,84965;3
132,68296; 37,60000;96,84933;3
133,18468; 37,70000;96,85139;3
133,73408; 37,80000;96,84499;3
134,22806; 37,90000;96,80292;3
134,76534; 38,00000;96,81293;3
135,26649; 38,10000;96,82418;3
135,79569; 38,20000;96,77712;3
136,30906; 38,30000;96,78665;3
136,82595; 38,40000;96,76750;3
137,34816; 38,50000;96,76816;3
137,84437; 38,60000;96,76614;3
138,37852; 38,70000;96,78178;3
138,87385; 38,80000;96,77899;3
139,41504; 38,90000;96,76803;3
139,89721; 39,00000;96,75630;3
140,43179; 39,10000;96,77501;3
140,92119; 39,20000;96,76194;3
141,44257; 39,30000;96,76898;3
141,94397; 39,40000;96,75510;3
142,45516; 39,50000;96,75773;3
142,96700; 39,60000;96,72539;3
143,46161; 39,70000;96,72711;3
143,98890; 39,80000;96,73657;3
144,47627; 39,90000;96,71013;3
145,01205; 40,00000;96,71525;3
145,49023; 40,10000;96,71187;3
146,02133; 40,20000;96,69968;3
146,49868; 40,30000;96,71927;3
147,02907; 40,40000;96,71039;3
147,51711; 40,50000;96,69542;3
148,03976; 40,60000;96,67615;3
148,53634; 40,70000;96,68527;3
149,04850; 40,80000;96,69793;3
149,55550; 40,90000;96,71651;3
150,05204; 41,00000;96,69248;3
150,57098; 41,10000;96,67009;3
151,06040; 41,20000;96,66682;3
151,59033; 41,30000;96,68455;3
152,07586; 41,40000;96,67219;3
152,61124; 41,50000;96,65308;3
153,08682; 41,60000;96,63047;3
153,62235; 41,70000;96,60863;3
154,10329; 41,80000;96,61081;3
154,63306; 41,90000;96,63164;3
155,11712; 42,00000;96,65278;3
155,63809; 42,10000;96,63914;3
156,13634; 42,20000;96,63832;3
156,64687; 42,30000;96,63511;3
157,14878; 42,40000;96,59408;3
157,64431; 42,50000;96,59153;3
158,15965; 42,60000;96,59874;3
158,65109; 42,70000;96,61163;3
159,17659; 42,80000;96,61671;3
159,66458; 42,90000;96,62624;3
160,19083; 43,00000;96,62122;3
160,67195; 43,10000;96,60947;3
161,20104; 43,20000;96,59562;3
161,68352; 43,30000;96,56943;3
162,20657; 43,40000;96,56253;3
162,69316; 43,50000;96,56872;3
163,20806; 43,60000;96,50900;3
163,68933; 43,70000;96,48724;3
164,20943; 43,80000;96,57770;3
164,70688; 43,90000;96,60762;3
165,21582; 44,00000;96,58555;3
165,70811; 44,10000;96,55094;3
166,21624; 44,20000;96,52171;3
166,71348; 44,30000;96,53236;3
167,21916; 44,40000;96,53247;3
167,72123; 44,50000;96,54708;3
168,22282; 44,60000;96,52671;3
168,72282; 44,70000;96,52775;3
169,22608; 44,80000;96,53036;3
169,72847; 44,90000;96,54209;3
170,23277; 45,00000;96,51945;3
170,73109; 45,10000;96,55006;3
171,23270; 45,20000;96,53518;3
171,73299; 45,30000;96,51388;3
172,23325; 45,40000;96,49502;3
172,73572; 45,50000;96,48138;3
173,23432; 45,60000;96,47204;3
173,73742; 45,70000;96,51071;3
174,24029; 45,80000;96,54350;3
174,73707; 45,90000;96,51849;3
175,23633; 46,00000;96,50673;3
175,73670; 46,10000;96,51157;3
176,24019; 46,20000;96,52369;3
176,74237; 46,30000;96,50464;3
177,24123; 46,40000;96,49354;3
177,73889; 46,50000;96,48266;3
178,23970; 46,60000;96,48179;3
178,73763; 46,70000;96,47596;3
179,24393; 46,80000;96,49385;3
179,74616; 46,90000;96,45735;3
180,25000; 47,00000;96,47225;3
180,74944; 47,10000;96,48690;3
181,24810; 47,20000;96,46203;3
181,74702; 47,30000;96,46822;3
182,24836; 47,40000;96,46394;3
182,75116; 47,50000;96,46585;3
183,25145; 47,60000;96,46822;3
183,75145; 47,70000;96,47665;3
184,25203; 47,80000;96,45940;3
184,75378; 47,90000;96,46176;3
185,25110; 48,00000;96,47227;3
185,75114; 48,10000;96,46691;3
186,25179; 48,20000;96,47720;3
186,74972; 48,30000;96,45130;3
187,24636; 48,40000;96,43362;3
187,74498; 48,50000;96,44368;3
188,24589; 48,60000;96,40340;3
188,74979; 48,70000;96,42950;3
189,25373; 48,80000;96,47416;3
189,75473; 48,90000;96,41544;3
190,25954; 49,00000;96,41860;3
190,76051; 49,10000;96,52176;3
191,25896; 49,20000;96,45546;3
191,75821; 49,30000;96,46402;3
192,25983; 49,40000;96,45387;3
192,76048; 49,50000;96,45439;3
193,26096; 49,60000;96,47238;3
193,76429; 49,70000;96,41118;3
194,26370; 49,80000;96,42639;3
194,76356; 49,90000;96,43455;3
195,26518; 50,00000;96,43152;3
195,76403; 50,10000;96,42901;3
196,26666; 50,20000;96,44029;3
196,76676; 50,30000;96,44257;3
197,26570; 50,40000;96,44128;3
197,76363; 50,50000;96,42611;3
198,26651; 50,60000;96,42964;3
198,76746; 50,70000;96,42348;3
199,26659; 50,80000;96,40342;3
199,76477; 50,90000;96,41692;3
200,26795; 51,00000;96,39741;3
200,76581; 51,10000;96,39152;3
201,26695; 51,20000;96,40089;3
201,76852; 51,30000;96,42055;3
202,26792; 51,40000;96,41426;3
202,76657; 51,50000;96,40100;3
203,26456; 51,60000;96,41116;3
203,76718; 51,70000;96,39713;3
204,26971; 51,80000;96,40862;3
204,76793; 51,90000;96,42129;3
205,26717; 52,00000;96,40377;3
205,76710; 52,10000;96,41020;3
206,26708; 52,20000;96,41117;3
206,77106; 52,30000;96,40654;3
207,27006; 52,40000;96,41563;3
207,77417; 52,50000;96,41931;3
208,27290; 52,60000;96,38747;3
208,77301; 52,70000;96,38018;3
209,27352; 52,80000;96,38255;3
209,77613; 52,90000;96,37520;3
210,27359; 53,00000;96,38812;3
210,77220; 53,10000;96,38960;3
211,27175; 53,20000;96,38422;3
211,77224; 53,30000;96,40154;3
212,27070; 53,40000;96,39461;3
212,77217; 53,50000;96,39613;3
213,27667; 53,60000;96,38672;3
213,77345; 53,70000;96,38452;3
214,27846; 53,80000;96,39737;3
214,77815; 53,90000;96,38424;3
215,27387; 54,00000;96,37161;3
215,77401; 54,10000;96,34583;3
216,27464; 54,20000;96,34217;3
216,77454; 54,30000;96,35163;3
217,27389; 54,40000;96,36035;3
217,77239; 54,50000;96,35486;3
218,27415; 54,60000;96,34881;3
218,77700; 54,70000;96,36511;3
219,27827; 54,80000;96,37026;3
219,77668; 54,90000;96,35604;3
220,27640; 55,00000;96,31748;3
220,77949; 55,10000;96,32917;3
221,28241; 55,20000;96,36341;3
221,78461; 55,30000;96,35190;3
222,28814; 55,40000;96,36652;3
222,78685; 55,50000;96,35580;3
223,28864; 55,60000;96,35090;3
223,78990; 55,70000;96,34754;3
224,28954; 55,80000;96,35440;3
224,78742; 55,90000;96,34617;3
225,28918; 56,00000;96,35482;3
225,78873; 56,10000;96,36817;3
226,29472; 56,20000;96,36111;3
226,79413; 56,30000;96,35004;3
227,29580; 56,40000;96,32929;3
227,79890; 56,50000;96,32127;3
228,29564; 56,60000;96,31921;3
228,79515; 56,70000;96,32527;3
229,29418; 56,80000;96,32537;3
229,79358; 56,90000;96,34235;3
230,29213; 57,00000;96,36122;3
230,79272; 57,10000;96,33669;3
231,29410; 57,20000;96,30488;3
231,79745; 57,30000;96,35466;3
232,30021; 57,40000;96,32679;3
232,79908; 57,50000;96,33662;3
233,30168; 57,60000;96,33003;3
233,79961; 57,70000;96,30431;3
234,30440; 57,80000;96,27321;3
234,80627; 57,90000;96,34935;3
235,30961; 58,00000;96,30013;3
235,81210; 58,10000;96,33068;3
236,31147; 58,20000;96,33817;3
236,81278; 58,30000;96,33746;3
237,31281; 58,40000;96,33005;3
237,81724; 58,50000;96,34087;3
238,31715; 58,60000;96,34487;3
238,81740; 58,70000;96,33607;3
239,31574; 58,80000;96,32870;3
239,81606; 58,90000;96,30150;3
240,31639; 59,00000;96,31648;3
240,81868; 59,10000;96,33066;3
241,32002; 59,20000;96,34397;3
241,82322; 59,30000;96,31873;3
242,32347; 59,40000;96,31562;3
242,82152; 59,50000;96,32042;3
243,32449; 59,60000;96,32021;3
243,82888; 59,70000;96,30553;3
244,33062; 59,80000;96,30797;3
244,82887; 59,90000;96,31492;3
245,33077; 60,00000;96,31879;3
245,82921; 60,10000;96,32046;3
246,32948; 60,20000;96,31492;3
246,83150; 60,30000;96,29452;3
247,32941; 60,40000;96,28810;3
247,83471; 60,50000;96,29987;3
248,33072; 60,60000;96,31164;3
248,83064; 60,70000;96,31341;3
249,33953; 60,80000;96,32353;3
249,84134; 60,90000;96,29524;3
250,33736; 61,00000;96,31142;3
250,83629; 61,10000;96,32392;3
251,33591; 61,20000;96,30206;3
251,83996; 61,30000;96,29286;3
252,34425; 61,40000;96,29796;3
252,84473; 61,50000;96,28526;3
253,34617; 61,60000;96,30977;3
253,84435; 61,70000;96,30462;3
254,34506; 61,80000;96,27752;3
254,84531; 61,90000;96,29476;3
255,34501; 62,00000;96,28394;3
255,84795; 62,10000;96,27737;3
256,34585; 62,20000;96,28026;3
256,84884; 62,30000;96,26837;3
257,35116; 62,40000;96,25663;3
257,85600; 62,50000;96,27918;3
258,35703; 62,60000;96,29321;3
258,85956; 62,70000;96,28561;3
259,35918; 62,80000;96,27190;3
259,85412; 62,90000;96,21448;3
260,35490; 63,00000;96,21530;3
260,85794; 63,10000;96,22133;3
261,36219; 63,20000;96,24098;3
261,85839; 63,30000;96,26647;3
262,36172; 63,40000;96,22738;3
262,86166; 63,50000;96,22705;3
263,36462; 63,60000;96,18231;3
263,86779; 63,70000;96,26891;3
264,36966; 63,80000;96,24594;3
264,87141; 63,90000;96,24028;3
265,37488; 64,00000;96,23459;3
265,87868; 64,10000;96,23477;3
266,38063; 64,20000;96,20676;3
266,88455; 64,30000;96,22151;3
267,38306; 64,40000;96,18952;3
267,87928; 64,50000;96,17767;3
268,38154; 64,60000;96,15780;3
268,88146; 64,70000;96,17637;3
269,38338; 64,80000;96,16422;3
269,88511; 64,90000;96,15303;3
270,38755; 65,00000;96,19063;3
270,88787; 65,10000;96,16213;3
271,39295; 65,20000;96,14405;3
271,89390; 65,30000;96,15480;3
272,39622; 65,40000;96,13869;3
272,89516; 65,50000;96,13279;3
273,39667; 65,60000;96,11146;3
273,89690; 65,70000;96,12815;3
274,39307; 65,80000;96,13467;3
274,89466; 65,90000;96,11889;3
275,39455; 66,00000;96,10695;3
275,89468; 66,10000;96,09432;3
276,39506; 66,20000;96,08105;3
276,89715; 66,30000;96,08900;3
277,39600; 66,40000;96,05656;3
277,89699; 66,50000;96,06436;3
278,39751; 66,60000;96,04403;3
278,89658; 66,70000;96,03282;3
279,39702; 66,80000;96,04805;3
279,89371; 66,90000;95,97143;3
280,39485; 67,00000;95,97153;3
280,89649; 67,10000;95,97058;3
281,39549; 67,20000;95,96801;3
281,89754; 67,30000;95,96367;3
282,40063; 67,40000;95,95578;3
282,90406; 67,50000;95,96070;3
283,40447; 67,60000;95,92464;3
283,91076; 67,70000;95,94900;3
284,41327; 67,80000;95,92228;3
284,91477; 67,90000;95,89339;3
285,41405; 68,00000;95,84921;3
285,91410; 68,10000;95,87868;3
286,41634; 68,20000;95,82340;3
286,91467; 68,30000;95,83542;3
287,41614; 68,40000;95,80076;3
287,91709; 68,50000;95,81624;3
288,41805; 68,60000;95,76959;3
288,92001; 68,70000;95,75606;3
289,42272; 68,80000;95,74311;3
289,92441; 68,90000;95,75150;3
290,42309; 69,00000;95,69489;3
290,92253; 69,10000;95,68964;3
291,42279; 69,20000;95,69134;3
291,92142; 69,30000;95,63671;3
292,42471; 69,40000;95,61534;3
292,92957; 69,50000;95,60782;3
293,43177; 69,60000;95,58845;3
293,93522; 69,70000;95,59649;3
294,43484; 69,80000;95,55729;3
294,93501; 69,90000;95,54162;3
295,43658; 70,00000;95,52236;3
295,93996; 70,10000;95,49328;3
296,44160; 70,20000;95,45858;3
296,94120; 70,30000;95,44272;3
297,44335; 70,40000;95,40345;3
297,94135; 70,50000;95,41883;3
298,44594; 70,60000;95,39874;3
298,94503; 70,70000;95,32190;3
299,44722; 70,80000;95,30386;3
299,94742; 70,90000;95,27279;3
300,44644; 71,00000;95,26290;3
300,94712; 71,10000;95,23813;3
301,44937; 71,20000;95,20085;3
301,94881; 71,30000;95,19503;3
302,44681; 71,40000;95,14374;3
302,94918; 71,50000;95,11209;3
303,45279; 71,60000;95,06707;3
303,95695; 71,70000;95,04303;3
304,45704; 71,80000;95,00557;3
304,95778; 71,90000;94,97634;3
305,45543; 72,00000;94,94365;3
305,95361; 72,10000;94,92345;3
306,45800; 72,20000;94,85421;3
306,96199; 72,30000;94,80736;3
307,46255; 72,40000;94,77368;3
307,96372; 72,50000;94,74453;3
308,46700; 72,60000;94,71189;3
308,97209; 72,70000;94,65694;3
309,47140; 72,80000;94,62513;3
309,97088; 72,90000;94,59425;3
310,47139; 73,00000;94,53087;3
310,97376; 73,10000;94,48200;3
311,47545; 73,20000;94,41008;3
311,97781; 73,30000;94,34899;3
312,47956; 73,40000;94,32463;3
312,98236; 73,50000;94,28341;3
313,48630; 73,60000;94,25003;3
313,98692; 73,70000;94,18249;3
314,48804; 73,80000;94,11491;3
314,98776; 73,90000;94,06458;3
315,48779; 74,00000;94,03992;3
315,98983; 74,10000;93,99434;3
316,49135; 74,20000;93,93127;3
316,99259; 74,30000;93,86231;3
317,49558; 74,40000;93,76269;3
317,99680; 74,50000;93,73563;3
318,49837; 74,60000;93,63129;3
318,99719; 74,70000;93,57126;3
319,49871; 74,80000;93,53298;3
320,00022; 74,90000;93,46294;3
320,50210; 75,00000;93,41842;3
321,00557; 75,10000;93,37085;3
321,50666; 75,20000;93,28219;3
322,00801; 75,30000;93,18941;3
322,51095; 75,40000;93,13219;3
323,01336; 75,50000;93,06336;3
323,51200; 75,60000;92,97526;3
324,01838; 75,70000;92,93412;3
324,51185; 75,80000;92,77642;3
325,01432; 75,90000;92,73330;3
325,51673; 76,00000;92,70354;3
326,01605; 76,10000;92,63362;3
326,52012; 76,20000;92,56879;3
327,02271; 76,30000;92,45552;3
327,52551; 76,40000;92,35333;3
328,02925; 76,50000;92,27399;3
328,53385; 76,60000;92,19002;3
329,03413; 76,70000;92,08300;3
329,53783; 76,80000;91,98736;3
330,04026; 76,90000;91,89175;3
330,54258; 77,00000;91,80615;3
331,04407; 77,10000;91,74732;3
331,54486; 77,20000;91,61825;3
332,04812; 77,30000;91,52764;3
332,55180; 77,40000;91,42184;3
333,05078; 77,50000;91,31669;3
333,55674; 77,60000;91,19649;3
334,06017; 77,70000;91,12036;3
334,55988; 77,80000;91,00720;3
335,06421; 77,90000;90,89009;3
335,56481; 78,00000;90,74909;3
336,06116; 78,10000;90,56617;3
336,56584; 78,20000;90,53947;3
337,06669; 78,30000;90,46062;3
337,57274; 78,40000;90,29376;3
338,07909; 78,50000;90,24769;3
338,58363; 78,60000;90,14009;3
339,08596; 78,70000;89,95123;3
339,58617; 78,80000;89,81950;3
340,08694; 78,90000;89,63536;3
340,58643; 79,00000;89,50901;3
341,08970; 79,10000;89,35457;3
341,59316; 79,20000;89,30264;3
342,09581; 79,30000;89,15211;3
342,59498; 79,40000;88,99546;3
343,09805; 79,50000;88,87822;3
343,60544; 79,60000;88,72335;3
344,11138; 79,70000;88,55374;3
344,61093; 79,80000;88,39559;3
345,10956; 79,90000;88,20805;3
345,61962; 80,00000;88,15542;3
346,11940; 80,10000;87,97225;3
346,62388; 80,20000;87,79096;3
347,12378; 80,30000;87,58376;3
347,62717; 80,40000;87,48055;3
348,13276; 80,50000;87,26206;3
348,63796; 80,60000;87,11938;3
349,14245; 80,70000;86,93942;3
349,64343; 80,80000;86,76725;3
350,14670; 80,90000;86,59233;3
350,65069; 81,00000;86,39072;3
351,14784; 81,10000;86,18584;3
351,64890; 81,20000;86,00702;3
352,15351; 81,30000;85,81420;3
352,65876; 81,40000;85,60860;3
353,16493; 81,50000;85,43388;3
353,66508; 81,60000;85,20151;3
354,17107; 81,70000;85,00822;3
354,67302; 81,80000;84,76883;3
355,17386; 81,90000;84,54859;3
355,67697; 82,00000;84,36559;3
356,18140; 82,10000;84,12766;3
356,68580; 82,20000;83,94016;3
357,19097; 82,30000;83,69546;3
357,69180; 82,40000;83,44161;3
358,19623; 82,50000;83,16328;3
358,70317; 82,60000;83,03274;3
359,21067; 82,70000;82,74537;3
359,71255; 82,80000;82,43493;3
360,21884; 82,90000;82,20157;3
360,72575; 83,00000;81,94108;3
361,23064; 83,10000;81,66126;3
361,73468; 83,20000;81,40686;3
362,24096; 83,30000;81,13195;3
362,74571; 83,40000;80,84574;3
363,24872; 83,50000;80,56542;3
363,75698; 83,60000;80,28746;3
364,26259; 83,70000;79,98228;3
364,76801; 83,80000;79,70054;3
365,27391; 83,90000;79,41131;3
365,77913; 84,00000;79,10130;3
366,28503; 84,10000;78,80709;3
366,78993; 84,20000;78,47065;3
367,29301; 84,30000;78,14915;3
367,79911; 84,40000;77,76522;3
368,29649; 84,50000;77,44280;3
368,80509; 84,60000;77,16451;3
369,31290; 84,70000;76,80569;3
369,81879; 84,80000;76,46794;3
370,32708; 84,90000;76,12574;3
370,83558; 85,00000;75,76678;3
371,34231; 85,10000;75,31409;3
371,84825; 85,20000;74,99094;3
372,35327; 85,30000;74,59982;3
372,85745; 85,40000;74,22749;3
373,36431; 85,50000;73,84884;3
373,87158; 85,60000;73,45199;3
374,37758; 85,70000;73,05247;3
374,88222; 85,80000;72,62989;3
375,38629; 85,90000;72,20047;3
375,89034; 86,00000;71,77613;3
376,39396; 86,10000;71,32126;3
376,89957; 86,20000;70,88387;3
377,40549; 86,30000;70,43327;3
377,90733; 86,40000;69,97026;3
378,41199; 86,50000;69,52936;3
378,91994; 86,60000;69,08555;3
379,42632; 86,70000;68,59073;3
379,92880; 86,80000;68,09204;3
380,43267; 86,90000;67,59898;3
380,93929; 87,00000;67,11034;3
381,44644; 87,10000;66,61381;3
381,94811; 87,20000;66,10777;3
382,45252; 87,30000;65,59762;3
382,95684; 87,40000;64,82995;3
383,45693; 87,50000;64,40684;3
383,95840; 87,60000;63,95037;3
384,45691; 87,70000;63,21657;3
384,95401; 87,80000;62,71467;3
385,45279; 87,90000;62,01564;3
385,94827; 88,00000;61,56354;3
386,44336; 88,10000;60,79539;3
386,93490; 88,20000;60,39133;3
387,42655; 88,30000;59,91039;3
387,91134; 88,40000;59,11030;3
388,39683; 88,50000;58,66122;3
388,88524; 88,60000;57,84661;3
389,36656; 88,70000;57,43413;3
389,84446; 88,80000;56,68366;3
390,32240; 88,90000;56,23233;3
390,80049; 89,00000;55,50080;3
391,26896; 89,10000;54,79902;3
391,74104; 89,20000;54,45536;3
392,20705; 89,30000;53,61921;3
392,67004; 89,40000;53,15432;3
393,13078; 89,50000;52,39061;3
393,59089; 89,60000;51,96606;3
394,04470; 89,70000;51,22702;3
394,49795; 89,80000;50,78611;3
394,95058; 89,90000;49,96414;3
395,40361; 90,00000;49,67619;3
395,85029; 90,10000;48,96777;3
396,29780; 90,20000;48,54265;3
396,74832; 90,30000;48,04900;3
397,19198; 90,40000;47,33706;3
397,63462; 90,50000;46,87050;3
398,08065; 90,60000;46,40561;3
398,52528; 90,70000;45,76190;3
398,97225; 90,80000;45,34023;3
399,41973; 90,90000;44,88074;3
399,86838; 91,00000;44,38157;3
400,31896; 91,10000;43,87932;3
400,76799; 91,20000;43,42888;3
401,22149; 91,30000;42,97468;3
401,68005; 91,40000;42,54807;3
402,13714; 91,50000;42,11221;3
402,59547; 91,60000;41,72399;3
403,05802; 91,70000;41,32688;3
403,52284; 91,80000;40,89728;3
403,99368; 91,90000;40,54008;3
404,46332; 92,00000;40,18054;3
404,94493; 92,10000;39,81363;3
405,42388; 92,20000;39,45824;3
405,90775; 92,30000;39,09110;3
406,39251; 92,40000;38,78690;3
406,88730; 92,50000;38,50819;3
407,37932; 92,60000;38,15735;3
407,87884; 92,70000;37,88024;3
408,38012; 92,80000;37,58987;3
408,88783; 92,90000;37,31569;3
409,39658; 93,00000;37,03199;3
409,91093; 93,10000;36,79769;3
410,42549; 93,20000;36,53533;3
410,94519; 93,30000;36,23597;3
411,46800; 93,40000;36,05277;3
411,99426; 93,50000;35,81805;3
412,52654; 93,60000;35,49718;3
413,06058; 93,70000;35,28371;3
413,60110; 93,80000;35,08256;3
414,14727; 93,90000;34,81968;3
414,69555; 94,00000;34,64378;3
415,25152; 94,10000;34,41252;3
415,80831; 94,20000;34,14684;3
416,36992; 94,30000;33,93066;3
416,93484; 94,40000;33,67732;3
417,50198; 94,50000;33,38972;3
418,07216; 94,60000;33,17700;3
418,64538; 94,70000;32,88692;3
419,22010; 94,80000;32,59243;3
419,78944; 94,90000;32,33928;3
420,36539; 95,00000;32,02909;3
420,93593; 95,10000;31,72167;3
421,50805; 95,20000;31,43352;3
422,08006; 95,30000;31,15650;3
422,65047; 95,40000;30,87360;3
423,21594; 95,50000;30,46326;3
423,77520; 95,60000;30,11551;3
424,33132; 95,70000;29,75830;3
424,88600; 95,80000;29,40366;3
425,43363; 95,90000;29,03424;3
425,97713; 96,00000;28,65850;3
426,51969; 96,10000;28,26373;3
427,05371; 96,20000;27,89155;3
427,58230; 96,30000;27,32313;3
428,10132; 96,40000;27,01452;3
428,61343; 96,50000;26,57817;3
429,12051; 96,60000;26,21039;3
429,62378; 96,70000;25,77249;3
430,11950; 96,80000;25,35855;3
430,60779; 96,90000;24,90897;3
431,09095; 97,00000;24,47484;3
431,56919; 97,10000;24,08671;3
432,03866; 97,20000;23,63282;3
432,50561; 97,30000;23,19964;3
432,96874; 97,40000;22,78927;3
433,42491; 97,50000;22,31667;3
433,87699; 97,60000;21,93387;3
434,32339; 97,70000;21,57054;3
434,76654; 97,80000;21,13988;3
435,20191; 97,90000;20,75200;3
435,63500; 98,00000;20,37090;3
436,06753; 98,10000;19,99392;3
436,49206; 98,20000;19,65712;3
436,91945; 98,30000;19,30540;3
437,33967; 98,40000;18,97654;3
437,76643; 98,50000;18,67417;3
438,19177; 98,60000;18,34304;3
438,61936; 98,70000;18,01330;3
439,04465; 98,80000;17,73233;3
439,47663; 98,90000;17,48665;3
439,91132; 99,00000;17,20884;3
440,35091; 99,10000;17,00273;3
440,79554; 99,20000;16,75991;3
441,24360; 99,30000;16,50997;3
441,69433; 99,40000;16,28424;3
442,15049; 99,50000;16,06210;3
442,61326; 99,60000;15,88658;3
443,07589; 99,70000;15,68662;3
443,54645; 99,80000;15,51976;3
444,02550; 99,90000;15,34930;3
444,51013;100,00000;15,26272;3
444,99363;100,10000;15,10846;3
445,48220;100,20000;14,96039;3
445,98115;100,30000;14,84412;3
446,47675;100,40000;14,73968;3
446,97889;100,50000;14,64147;3
447,48091;100,60000;14,48496;3
447,99123;100,70000;14,36149;3
448,50408;100,80000;14,29373;3
449,02063;100,90000;14,27977;3
449,53779;101,00000;14,16891;3
450,05921;101,10000;14,08688;3
450,57503;101,20000;14,00358;3
451,09366;101,30000;13,90563;3
451,61280;101,40000;13,79431;3
452,13719;101,50000;13,76436;3
452,66044;101,60000;13,72387;3
453,18627;101,70000;13,67878;3
453,71134;101,80000;13,62842;3
454,23984;101,90000;13,61698;3
454,76204;102,00000;13,53024;3
455,28748;102,10000;13,51697;3
455,81639;102,20000;13,48076;3
456,34513;102,30000;13,42667;3
456,87144;102,40000;13,39583;3
457,39692;102,50000;13,34126;3
457,92432;102,60000;13,30071;3
458,45034;102,70000;13,28899;3
458,97478;102,80000;13,26075;3
459,49853;102,90000;13,24289;3
460,01975;103,00000;13,17946;3
460,54632;103,10000;13,17091;3
461,06846;103,20000;13,11979;3
461,59437;103,30000;13,12318;3
462,10895;103,40000;13,09799;3
462,62934;103,50000;13,07284;3
463,14910;103,60000;13,02109;3
463,66603;103,70000;13,01854;3
464,18556;103,80000;13,01243;3
464,70382;103,90000;13,01172;3
465,21889;104,00000;12,96883;3
465,73180;104,10000;12,91557;3
466,24901;104,20000;12,89864;3
466,76056;104,30000;12,89880;3
467,27390;104,40000;12,86871;3
467,78957;104,50000;12,87149;3
468,30202;104,60000;12,85875;3
468,80930;104,70000;12,84579;3
469,32117;104,80000;12,83452;3
469,82714;104,90000;12,80558;3
470,33700;105,00000;12,79108;3
470,84651;105,10000;12,79459;3
471,35457;105,20000;12,76569;3
471,86290;105,30000;12,78985;3
472,36686;105,40000;12,75656;3
472,87237;105,50000;12,77055;3
473,37826;105,60000;12,70838;3
473,88589;105,70000;12,70814;3
474,38981;105,80000;12,70010;3
474,89504;105,90000;12,66463;3
475,39953;106,00000;12,72055;3
475,90343;106,10000;12,67975;3
476,40713;106,20000;12,64839;3
476,91353;106,30000;12,61597;3
477,41800;106,40000;12,67252;3
477,91782;106,50000;12,60447;3
478,42007;106,60000;12,58534;3
478,92308;106,70000;12,58205;3
479,42399;106,80000;12,55398;3
479,92778;106,90000;12,56773;3
480,43277;107,00000;12,55305;3
480,93703;107,10000;12,55633;3
481,44083;107,20000;12,58999;3
481,93942;107,30000;12,52651;3
482,44075;107,40000;12,55139;3
482,94421;107,50000;12,54281;3
483,44437;107,60000;12,51754;3
483,95008;107,70000;12,52934;3
484,44949;107,80000;12,51585;3
484,95252;107,90000;12,50044;3
485,45155;108,00000;12,45661;3
485,95221;108,10000;12,48275;3
486,45852;108,20000;12,45699;3
486,95707;108,30000;12,46301;3
487,45907;108,40000;12,48583;3
487,95743;108,50000;12,44710;3
488,46067;108,60000;12,46571;3
488,95793;108,70000;12,43183;3
489,45694;108,80000;12,41034;3
489,96148;108,90000;12,41440;3
490,46263;109,00000;12,40479;3
490,96113;109,10000;12,37654;3
491,46835;109,20000;12,37147;3
491,96396;109,30000;12,36388;3
492,46911;109,40000;12,36260;3
492,97206;109,50000;12,37753;3
493,47190;109,60000;12,36721;3
493,97630;109,70000;12,37749;3
494,47358;109,80000;12,36890;3
494,97788;109,90000;12,36273;3
495,48084;110,00000;12,34522;3
495,98377;110,10000;12,33253;3
496,48439;110,20000;12,35909;3
496,98344;110,30000;12,35037;3
497,48317;110,40000;12,33065;3
497,98545;110,50000;12,34993;3
498,48329;110,60000;12,32147;3
498,98207;110,70000;12,29266;3
499,48270;110,80000;12,29332;3
499,98433;110,90000;12,27540;3
500,48497;111,00000;12,28099;3
500,98670;111,10000;12,26928;3
501,49088;111,20000;12,25902;3
501,99554;111,30000;12,30638;3
502,49629;111,40000;12,27622;3
503,00033;111,50000;12,23741;3
503,50419;111,60000;12,22871;3
504,00293;111,70000;12,27591;3
504,50361;111,80000;12,27255;3
505,00555;111,90000;12,23587;3
505,50540;112,00000;12,26519;3
506,00308;112,10000;12,25295;3
506,50270;112,20000;12,20777;3
507,00213;112,30000;12,18224;3
507,50289;112,40000;12,17776;3
508,00415;112,50000;12,20393;3
508,50527;112,60000;12,17526;3
509,00547;112,70000;12,17695;3
509,50929;112,80000;12,19124;3
510,01144;112,90000;12,17478;3
510,51068;113,00000;12,16712;3
511,01034;113,10000;12,15215;3
511,51047;113,20000;12,18322;3
512,01170;113,30000;12,16659;3
512,51044;113,40000;12,14630;3
513,00675;113,50000;12,15484;3
513,51101;113,60000;12,11268;3
514,01163;113,70000;12,10525;3
514,51261;113,80000;12,13167;3
515,01439;113,90000;12,11390;3
515,51474;114,00000;12,10534;3
516,01483;114,10000;12,13084;3
516,51662;114,20000;12,12953;3
517,01743;114,30000;12,08509;3
517,52066;114,40000;12,06689;3
518,02273;114,50000;12,06679;3
518,52311;114,60000;12,08917;3
519,01981;114,70000;12,07304;3
519,52207;114,80000;12,06119;3
520,01880;114,90000;12,03133;3
520,52217;115,00000;12,05439;3
521,02401;115,10000;12,07598;3
521,52252;115,20000;12,05201;3
522,02220;115,30000;12,07043;3
522,52161;115,40000;12,05042;3
523,02566;115,50000;12,06437;3
523,52793;115,60000;12,02110;3
524,02829;115,70000;12,03151;3
524,53077;115,80000;12,05476;3
525,02766;115,90000;11,99450;3
525,52854;116,00000;12,01130;3
526,02881;116,10000;12,01525;3
526,53024;116,20000;11,99165;3
527,03233;116,30000;12,00000;3
527,53487;116,40000;11,98310;3
528,03275;116,50000;11,97514;3
528,53385;116,60000;11,98063;3
529,03424;116,70000;11,95106;3
529,53602;116,80000;11,94001;3
530,03145;116,90000;11,92754;3
530,53623;117,00000;11,93669;3
531,03951;117,10000;11,97423;3
531,54030;117,20000;11,95762;3
532,03980;117,30000;11,97778;3
532,53465;117,40000;11,94947;3
533,03229;117,50000;11,93798;3
533,53163;117,60000;11,91722;3
534,03249;117,70000;11,91473;3
534,53464;117,80000;11,90761;3
535,03268;117,90000;11,89370;3
535,53228;118,00000;11,91020;3
536,03394;118,10000;11,87489;3
536,53403;118,20000;11,88461;3
537,03571;118,30000;11,89023;3
537,53816;118,40000;11,87694;3
538,03624;118,50000;11,86205;3
538,53523;118,60000;11,86340;3
539,03562;118,70000;11,82944;3
539,53685;118,80000;11,82558;3
540,03762;118,90000;11,82488;3
540,54139;119,00000;11,83050;3
541,04144;119,10000;11,83065;3
541,54176;119,20000;11,82273;3
542,04492;119,30000;11,82873;3
542,54778;119,40000;11,85209;3
543,04638;119,50000;11,79207;3
543,54676;119,60000;11,79790;3
544,04371;119,70000;11,75791;3
544,54311;119,80000;11,78412;3
545,04374;119,90000;11,77100;3
545,54536;120,00000;11,74367;3
546,04087;120,10000;11,72370;3
546,54467;120,20000;11,74777;3
547,04852;120,30000;11,72994;3
547,54566;120,40000;11,72908;3
548,04793;120,50000;11,67706;3
548,54752;120,60000;11,71490;3
549,04447;120,70000;11,75002;3
549,54366;120,80000;11,69167;3
550,04464;120,90000;11,70189;3
550,54483;121,00000;11,67416;3
551,04531;121,10000;11,65052;3
551,54565;121,20000;11,63995;3
552,05173;121,30000;11,63787;3
552,55470;121,40000;11,67648;3
553,05460;121,50000;11,65418;3
553,55619;121,60000;11,65910;3
554,05614;121,70000;11,64228;3
554,55301;121,80000;11,62704;3
555,05646;121,90000;11,61634;3
555,55879;122,00000;11,59952;3
556,05729;122,10000;11,59489;3
556,55666;122,20000;11,55192;3
557,05623;122,30000;11,58798;3
557,55746;122,40000;11,57503;3
558,05835;122,50000;11,56722;3
558,55586;122,60000;11,56103;3
559,05965;122,70000;11,57336;3
559,56069;122,80000;11,54940;3
560,06317;122,90000;11,53351;3
560,56322;123,00000;11,53106;3
561,06132;123,10000;11,52349;3
561,55984;123,20000;11,51662;3
562,06078;123,30000;11,51116;3
562,55947;123,40000;11,50455;3
563,05793;123,50000;11,48500;3
563,55722;123,60000;11,48392;3
564,05672;123,70000;11,46646;3
564,55684;123,80000;11,46654;3
565,05899;123,90000;11,46491;3
565,56126;124,00000;11,46645;3
566,05919;124,10000;11,43313;3
566,56220;124,20000;11,42903;3
567,05822;124,30000;11,43802;3
567,55861;124,40000;11,40921;3
568,05614;124,50000;11,38968;3
568,55622;124,60000;11,40267;3
569,05455;124,70000;11,40410;3
569,55883;124,80000;11,39087;3
570,05333;124,90000;11,37096;3
570,55494;125,00000;11,31588;3
571,05521;125,10000;11,30342;3
571,55668;125,20000;11,35306;3
572,05992;125,30000;11,35203;3
572,56306;125,40000;11,36091;3
573,06422;125,50000;11,37209;3
573,56366;125,60000;11,33874;3
574,06470;125,70000;11,32630;3
574,56299;125,80000;11,30393;3
575,06588;125,90000;11,31137;3
575,56621;126,00000;11,31542;3
576,06436;126,10000;11,30125;3
576,56562;126,20000;11,28217;3
577,06130;126,30000;11,24458;3
577,56724;126,40000;11,24924;3
578,06576;126,50000;11,27462;3
578,56770;126,60000;11,26032;3
579,06887;126,70000;11,28170;3
579,57072;126,80000;11,27329;3
580,06995;126,90000;11,25488;3
580,57082;127,00000;11,23675;3
581,07650;127,10000;11,24482;3
581,57687;127,20000;11,24098;3
582,07553;127,30000;11,23326;3
582,57118;127,40000;11,16394;3
583,06935;127,50000;11,19397;3
583,57236;127,60000;11,19595;3
584,07114;127,70000;11,19150;3
584,57129;127,80000;11,20723;3
585,07220;127,90000;11,19302;3
585,57112;128,00000;11,17065;3
586,07766;128,10000;11,21051;3
586,57668;128,20000;11,18316;3
587,07729;128,30000;11,17833;3
587,57500;128,40000;11,16841;3
588,07991;128,50000;11,16715;3
588,57542;128,60000;11,12842;3
589,07136;128,70000;11,13189;3
589,57198;128,80000;11,11874;3
590,06856;128,90000;11,12335;3
590,56938;129,00000;11,12091;3
591,06850;129,10000;11,11513;3
591,57209;129,20000;11,10250;3
592,07370;129,30000;11,08600;3
592,57185;129,40000;11,08883;3
593,07036;129,50000;11,08717;3
593,57169;129,60000;11,06945;3
594,07173;129,70000;11,08132;3
594,57207;129,80000;11,09079;3
595,07094;129,90000;11,03761;3
595,57233;130,00000;11,03878;3
596,07743;130,10000;11,04454;3
596,58014;130,20000;11,00741;3
597,07995;130,30000;10,99374;3
597,58101;130,40000;11,01325;3
598,08103;130,50000;11,00973;3
598,58140;130,60000;11,00765;3
599,07920;130,70000;11,00092;3
599,57658;130,80000;10,93173;3
600,07823;130,90000;10,94764;3
600,57553;131,00000;10,96253;3
601,07511;131,10000;10,96592;3
601,57662;131,20000;10,95752;3
602,07769;131,30000;10,93143;3
602,57954;131,40000;10,91388;3
603,08456;131,50000;10,98238;3
603,58451;131,60000;10,93349;3
604,08532;131,70000;11,01069;3
604,58442;131,80000;10,96148;3
605,08328;131,90000;10,94477;3
605,58234;132,00000;10,90968;3
606,08722;132,10000;10,93426;3
606,58953;132,20000;10,89371;3
607,09384;132,30000;10,90357;3
607,59247;132,40000;10,93444;3
608,09287;132,50000;10,89245;3
608,59208;132,60000;10,89979;3
609,09031;132,70000;10,89038;3
609,59538;132,80000;10,90480;3
610,09659;132,90000;10,87550;3
610,59786;133,00000;10,85654;3
611,09975;133,10000;10,88508;3
611,59862;133,20000;10,88621;3
612,09675;133,30000;10,85504;3
612,59752;133,40000;10,83531;3
613,09467;133,50000;10,84453;3
613,59572;133,60000;10,81595;3
614,09692;133,70000;10,83668;3
614,59668;133,80000;10,83368;3
615,09926;133,90000;10,81519;3
615,59460;134,00000;10,82272;3
616,09802;134,10000;10,80938;3
616,59651;134,20000;10,80743;3
617,09800;134,30000;10,79685;3
617,59424;134,40000;10,76384;3
618,09751;134,50000;10,81132;3
618,60042;134,60000;10,79253;3
619,10035;134,70000;10,78401;3
619,60394;134,80000;10,74131;3
620,10682;134,90000;10,77696;3
620,60809;135,00000;10,77537;3
621,10357;135,10000;10,76701;3
621,60504;135,20000;10,76319;3
622,10625;135,30000;10,72599;3
622,60495;135,40000;10,75148;3
623,10412;135,50000;10,72756;3
623,60701;135,60000;10,75387;3
624,10649;135,70000;10,78661;3
624,60415;135,80000;10,75416;3
625,10864;135,90000;10,74960;3
625,60852;136,00000;10,74563;3
626,11199;136,10000;10,73875;3
626,60904;136,20000;10,73373;3
627,10812;136,30000;10,71222;3
627,60708;136,40000;10,70506;3
628,10672;136,50000;10,72491;3
628,60937;136,60000;10,73899;3
629,11912;136,70000;10,72369;3
629,61338;136,80000;10,70716;3
630,10752;136,90000;10,69479;3
630,60862;137,00000;10,69952;3
631,11033;137,10000;10,71158;3
631,61238;137,20000;10,69970;3
632,11415;137,30000;10,72776;3
632,61108;137,40000;10,71452;3
633,11036;137,50000;10,67231;3
633,60980;137,60000;10,68813;3
634,10693;137,70000;10,68766;3
634,59763;137,80000;10,61926;3
635,08955;137,90000;10,63681;3
635,58794;138,00000;10,65499;3
636,08789;138,10000;10,63658;3
636,58656;138,20000;10,63171;3
637,08849;138,30000;10,62894;3
637,58867;138,40000;10,63652;3
638,09379;138,50000;10,62057;3
638,59411;138,60000;10,63187;3
639,09470;138,70000;10,62817;3
639,59701;138,80000;10,64009;3
640,10056;138,90000;10,62676;3
640,60253;139,00000;10,64258;3
641,10477;139,10000;10,62441;3
641,60347;139,20000;10,60924;3
642,10710;139,30000;10,58961;3
642,61321;139,40000;10,58427;3
643,09965;139,50000;10,56693;3
643,59594;139,60000;10,59085;3
644,10192;139,70000;10,58937;3
644,60457;139,80000;10,59310;3
645,10777;139,90000;10,56177;3
645,60836;140,00000;10,58443;3
646,11124;140,10000;10,54403;3
646,61208;140,20000;10,57096;3
647,10988;140,30000;10,56301;3
647,59963;140,40000;10,57026;3
648,08488;140,50000;10,55898;3
648,58067;140,60000;10,53410;3
649,08648;140,70000;10,58272;3
649,59255;140,80000;10,56342;3
650,09542;140,90000;10,57743;3
650,59975;141,00000;10,54882;3
651,10337;141,10000;10,53734;3
651,60791;141,20000;10,53067;3
652,10840;141,30000;10,53613;3
652,60292;141,40000;10,49751;3
653,10412;141,50000;10,50589;3
653,61010;141,60000;10,51581;3
654,11553;141,70000;10,48397;3
654,61399;141,80000;10,48866;3
655,10774;141,90000;10,42856;3
655,60642;142,00000;10,45627;3
656,10912;142,10000;10,47379;3
656,63791;142,20000;10,47259;3
657,14623;142,30000;10,48008;3
657,63959;142,40000;10,44489;3
658,14264;142,50000;10,45368;3
658,63870;142,60000;10,43769;3
659,13860;142,70000;10,41386;3
659,63641;142,80000;10,40254;3
660,13631;142,90000;10,40717;3
660,63365;143,00000;10,42393;3
661,13160;143,10000;10,39440;3
661,63484;143,20000;10,40873;3
662,13450;143,30000;10,43780;3
662,63633;143,40000;10,39512;3
663,13630;143,50000;10,39826;3
663,63294;143,60000;10,40483;3
664,13389;143,70000;10,43636;3
664,63219;143,80000;10,40500;3
665,13246;143,90000;10,36804;3
665,62673;144,00000;10,37567;3
666,11161;144,10000;10,27165;3
666,60499;144,20000;10,32670;3
667,10270;144,30000;10,33908;3
667,60288;144,40000;10,31399;3
668,10396;144,50000;10,35261;3
668,60665;144,60000;10,33880;3
669,10390;144,70000;10,37929;3
669,60262;144,80000;10,30170;3
670,10684;144,90000;10,33926;3
670,61057;145,00000;10,31048;3
671,11378;145,10000;10,29998;3
671,61600;145,20000;10,28877;3
672,11330;145,30000;10,32026;3
672,60154;145,40000;10,29356;3
673,09973;145,50000;10,25738;3
673,60464;145,60000;10,25384;3
674,10827;145,70000;10,27263;3
674,61089;145,80000;10,31489;3
675,11213;145,90000;10,29702;3
675,61013;146,00000;10,21258;3
676,11432;146,10000;10,21816;3
676,62252;146,20000;10,27053;3
677,12491;146,30000;10,18512;3
677,62368;146,40000;10,18209;3
678,12412;146,50000;10,16045;3
678,62759;146,60000;10,18420;3
679,12989;146,70000;10,21136;3
679,63158;146,80000;10,20824;3
680,13393;146,90000;10,16991;3
680,63439;147,00000;10,16844;3
681,13308;147,10000;10,14103;3
681,63244;147,20000;10,15794;3
682,12967;147,30000;10,18911;3
682,62455;147,40000;10,16722;3
683,12356;147,50000;10,15512;3
683,62334;147,60000;10,12565;3
684,11953;147,70000;10,06420;3
684,61998;147,80000;10,14132;3
685,12126;147,90000;10,05352;3
685,62254;148,00000;10,13613;3
686,12357;148,10000;10,18697;3
686,62458;148,20000;10,13981;3
687,12942;148,30000;10,09870;3
687,63056;148,40000;10,01093;3
688,13403;148,50000;10,10520;3
688,63366;148,60000;10,11995;3
689,13286;148,70000;10,03883;3
689,63316;148,80000;10,04051;3
690,13638;148,90000;10,05113;3
690,64022;149,00000;10,04944;3
691,13905;149,10000; 9,99211;3
691,63984;149,20000;10,01286;3
692,13813;149,30000;10,01525;3
692,63949;149,40000;10,01051;3
693,13810;149,50000;10,04858;3
693,63371;149,60000;10,02085;3
694,13347;149,70000; 9,99047;3
694,63108;149,80000; 9,97891;3
695,13228;149,90000; 9,98120;3
695,63319;150,00000; 9,96413;3
696,13465;150,10000; 9,95023;3
696,64521;150,20000; 9,99257;3
697,14500;150,30000;10,01866;3
697,64111;150,40000; 9,93686;3
698,14105;150,50000; 9,89107;3
698,63683;150,60000; 9,92627;3
699,13529;150,70000; 9,88336;3
699,63563;150,80000; 9,90016;3
700,13561;150,90000; 9,86983;3
700,63595;151,00000; 9,88514;3
701,13431;151,10000; 9,85934;3
701,63435;151,20000; 9,82295;3
702,14037;151,30000; 9,83142;3
702,64555;151,40000; 9,85111;3
703,14403;151,50000; 9,85909;3
703,63899;151,60000; 9,80895;3
704,13763;151,70000; 9,70668;3
704,63954;151,80000; 9,70313;3
705,13792;151,90000; 9,73981;3
705,64210;152,00000; 9,82204;3
706,13900;152,10000; 9,78569;3
706,64206;152,20000; 9,75840;3
707,14105;152,30000; 9,72693;3
707,64151;152,40000; 9,74454;3
708,14272;152,50000; 9,72275;3
708,64252;152,60000; 9,73135;3
709,14242;152,70000; 9,69162;3
709,64590;152,80000; 9,66925;3
710,14599;152,90000; 9,67858;3
710,64727;153,00000; 9,61340;3
711,14982;153,10000; 9,66349;3
711,64605;153,20000; 9,64722;3
712,14580;153,30000; 9,60735;3
712,64514;153,40000; 9,60243;3
713,14855;153,50000; 9,62590;3
713,64773;153,60000; 9,54533;3
714,15000;153,70000; 9,56424;3
714,65288;153,80000; 9,63007;3
715,15224;153,90000; 9,59040;3
715,52667;153,97500; 9,57260;3